{
  "resourceType": "CarePlan",
  "id": "charity-otala-1-transient-first-contact",
  "text": {
    "status": "generated",
    "div": "<div xmlns=\"http://www.w3.org/1999/xhtml\"><p><b>Generated Narrative: CarePlan</b></p><div style=\"display: inline-block; background-color: #d9e0e7; padding: 6px; margin: 4px; border: 1px solid #8da1b4; border-radius: 5px; line-height: 60%\"><p style=\"margin-bottom: 0px\">Resource CarePlan \"charity-otala-1-transient-first-contact\" </p></div><p><b>instantiatesCanonical</b>: <a href=\"PlanDefinition-ANCB.html\">ANC.B Routine contact</a></p><p><b>status</b>: active</p><p><b>intent</b>: plan</p><p><b>subject</b>: <a href=\"Patient-charity-otala-1.html\">Patient/charity-otala-1: Charity Otala</a> \" OTALA\"</p><h3>Activities</h3><table class=\"grid\"><tr><td>-</td><td><b>Reference</b></td></tr><tr><td>*</td><td><a name=\"requestgroup-anc-b\"> </a><blockquote><div style=\"display: inline-block; background-color: #d9e0e7; padding: 6px; margin: 4px; border: 1px solid #8da1b4; border-radius: 5px; line-height: 60%\"><p style=\"margin-bottom: 0px\">Resource RequestGroup \"requestgroup-anc-b\" </p></div><p><b>instantiatesCanonical</b>: <a href=\"PlanDefinition-ANCB.html\">ANC.B Routine contact</a></p><p><b>status</b>: draft</p><p><b>intent</b>: proposal</p><p><b>subject</b>: <a href=\"Patient-charity-otala-1.html\">Patient/charity-otala-1: Charity Otala</a> \" OTALA\"</p><p><b>encounter</b>: <a href=\"Encounter-anc-encounter-charity-otala-1.html\">Encounter/anc-encounter-charity-otala-1</a></p><blockquote><p><b>action</b></p><h3>RelatedActions</h3><table class=\"grid\"><tr><td>-</td><td><b>ActionId</b></td><td><b>Relationship</b></td></tr><tr><td>*</td><td>5</td><td>before-start</td></tr></table><p><b>resource</b>: <a href=\"#task-anc-b4\">#task-anc-b4</a></p></blockquote><blockquote><p><b>action</b></p><h3>RelatedActions</h3><table class=\"grid\"><tr><td>-</td><td><b>ActionId</b></td><td><b>Relationship</b></td></tr><tr><td>*</td><td>6</td><td>before-start</td></tr></table><p><b>resource</b>: <a href=\"#task-anc-b5\">#task-anc-b5</a></p></blockquote><blockquote><p><b>action</b></p><h3>RelatedActions</h3><table class=\"grid\"><tr><td>-</td><td><b>ActionId</b></td><td><b>Relationship</b></td></tr><tr><td>*</td><td>7</td><td>before-start</td></tr></table><p><b>resource</b>: <a href=\"#task-anc-b6\">#task-anc-b6</a></p></blockquote><blockquote><p><b>action</b></p><h3>RelatedActions</h3><table class=\"grid\"><tr><td>-</td><td><b>ActionId</b></td><td><b>Relationship</b></td></tr><tr><td>*</td><td>8</td><td>before-start</td></tr></table><p><b>resource</b>: <a href=\"#task-anc-b7\">#task-anc-b7</a></p></blockquote><blockquote><p><b>action</b></p><h3>RelatedActions</h3><table class=\"grid\"><tr><td>-</td><td><b>ActionId</b></td><td><b>Relationship</b></td></tr><tr><td>*</td><td>9</td><td>before-start</td></tr></table><p><b>resource</b>: <a href=\"#task-anc-b8\">#task-anc-b8</a></p></blockquote><blockquote><p><b>action</b></p><h3>RelatedActions</h3><table class=\"grid\"><tr><td>-</td><td><b>ActionId</b></td><td><b>Relationship</b></td></tr><tr><td>*</td><td>10</td><td>before-start</td></tr></table><p><b>resource</b>: <a href=\"#task-anc-b9\">#task-anc-b9</a></p></blockquote><blockquote><p><b>action</b></p><h3>RelatedActions</h3><table class=\"grid\"><tr><td>-</td><td><b>ActionId</b></td><td><b>Relationship</b></td></tr><tr><td>*</td><td>11</td><td>before-start</td></tr></table><p><b>resource</b>: <a href=\"#task-anc-b10\">#task-anc-b10</a></p></blockquote><blockquote><p><b>action</b></p><h3>RelatedActions</h3><table class=\"grid\"><tr><td>-</td><td><b>ActionId</b></td><td><b>Relationship</b></td></tr><tr><td>*</td><td>12</td><td>before-start</td></tr></table><p><b>resource</b>: <a href=\"#task-anc-b11\">#task-anc-b11</a></p></blockquote><blockquote><p><b>action</b></p><p><b>resource</b>: <a href=\"#task-anc-b12\">#task-anc-b12</a></p></blockquote></blockquote></td></tr></table></div>"
  },
  "contained": [
    {
      "resourceType": "RequestGroup",
      "id": "requestgroup-anc-b",
      "instantiatesCanonical": [
        "http://fhir.org/guides/who/anc-cds/PlanDefinition/ANCB"
      ],
      "status": "draft",
      "intent": "proposal",
      "subject": {
        "reference": "Patient/charity-otala-1",
        "display": "Charity Otala"
      },
      "encounter": {
        "reference": "Encounter/anc-encounter-charity-otala-1"
      },
      "action": [
        {
          "id": "4",
          "relatedAction": [
            {
              "actionId": "5",
              "relationship": "before-start"
            }
          ],
          "resource": {
            "reference": "#task-anc-b4"
          }
        },
        {
          "id": "5",
          "relatedAction": [
            {
              "actionId": "6",
              "relationship": "before-start"
            }
          ],
          "resource": {
            "reference": "#task-anc-b5"
          }
        },
        {
          "id": "6",
          "relatedAction": [
            {
              "actionId": "7",
              "relationship": "before-start"
            }
          ],
          "resource": {
            "reference": "#task-anc-b6"
          }
        },
        {
          "id": "7",
          "relatedAction": [
            {
              "actionId": "8",
              "relationship": "before-start"
            }
          ],
          "resource": {
            "reference": "#task-anc-b7"
          }
        },
        {
          "id": "8",
          "relatedAction": [
            {
              "actionId": "9",
              "relationship": "before-start"
            }
          ],
          "resource": {
            "reference": "#task-anc-b8"
          }
        },
        {
          "id": "9",
          "relatedAction": [
            {
              "actionId": "10",
              "relationship": "before-start"
            }
          ],
          "resource": {
            "reference": "#task-anc-b9"
          }
        },
        {
          "id": "10",
          "relatedAction": [
            {
              "actionId": "11",
              "relationship": "before-start"
            }
          ],
          "resource": {
            "reference": "#task-anc-b10"
          }
        },
        {
          "id": "11",
          "relatedAction": [
            {
              "actionId": "12",
              "relationship": "before-start"
            }
          ],
          "resource": {
            "reference": "#task-anc-b11"
          }
        },
        {
          "id": "12",
          "resource": {
            "reference": "#task-anc-b12"
          }
        }
      ]
    },
    {
      "resourceType": "Task",
      "id": "task-anc-b4",
      "instantiatesCanonical": "http://fhir.org/guides/who/anc-cds/ActivityDefinition/ANCB4",
      "status": "draft",
      "intent": "proposal",
      "code": {
        "coding": [
          {
            "system": "http://fhir.org/guides/who/anc-cds/CodeSystem/activity-codes",
            "code": "ANC.B4",
            "display": "Confirm pregnancy"
          },
          {
            "system": "http://hl7.org/fhir/uv/cpg/CodeSystem/cpg-activity-type",
            "code": "collect-information",
            "display": "Collect Information"
          },
          {
            "system": "http://hl7.org/fhir/uv/cpg/CodeSystem/cpg-common-process",
            "code": "history-and-physical",
            "display": "History and Physical"
          }
        ]
      },
      "input": [
        {
          "type": {
            "coding": [
              {
                "system": "http://hl7.org/fhir/uv/cpg/CodeSystem/cpg-activity-type",
                "code": "collect-information",
                "display": "Collect Information"
              }
            ]
          },
          "valueCanonical": "http://fhir.org/guides/who/anc-cds/Questionnaire/ANCB4"
        }
      ]
    }
  ],
  "instantiatesCanonical": [
    "http://fhir.org/guides/who/anc-cds/PlanDefinition/ANCB"
  ],
  "status": "active",
  "intent": "plan",
  "subject": {
    "reference": "Patient/charity-otala-1",
    "display": "Charity Otala"
  },
  "activity": [
    {
      "reference": {
        "reference": "#requestgroup-anc-b"
      }
    }
  ]
}